# time,tag,mass,x,y,z,vx,vy,vz,ax,ay,az
# s,,kg,m,m,m,m/s,m/s,m/s,m/s^2,m/s^2,m/s^2

0.000000000000000000e+00,1.000000000000000000e+00,1.000000000000000000e+00,9.374846889290291418e-01,9.659946136732628919e-01,6.535791673648367883e-01,6.143557279822922101e-01,7.360451832581105247e-02,5.595359273839881631e-01,8.769230599794654024e-01,8.643511022432245339e-01,9.293367885050898280e-01
0.000000000000000000e+00,2.000000000000000000e+00,1.000000000000000000e+00,4.201776078989477581e-01,8.418789864825200198e-01,6.804992608961712985e-01,2.989392824497886236e-01,4.427205349102125709e-02,2.301163222998896529e-01,9.159048995901928336e-01,4.773046494997353895e-01,5.209583083522520974e-01
0.000000000000000000e+00,3.000000000000000000e+00,1.000000000000000000e+00,1.213898924929482925e-01,7.000367660256023861e-03,9.585190095333300242e-01,1.979094511613109786e-01,7.047811810973033664e-01,9.794177360856098913e-01,5.285199696333309216e-02,8.734920223675144424e-01,6.406443577620570817e-01
0.000000000000000000e+00,4.000000000000000000e+00,1.000000000000000000e+00,4.297409965941265675e-01,5.623870854646635387e-01,2.745887863637597182e-01,3.285983497247101370e-01,8.883858648065761088e-01,2.859080256755019978e-02,3.547354052995765894e-01,3.997977420897335099e-01,2.854603331788225784e-01
0.000000000000000000e+00,5.000000000000000000e+00,1.000000000000000000e+00,8.315583771795727053e-01,6.470136123339669254e-01,1.798282927502710127e-01,9.926073510149113766e-02,7.179643945770453062e-01,9.938152266609155960e-01,6.672637338382417793e-01,8.463581005213852704e-01,1.872206224307054745e-01
0.000000000000000000e+00,6.000000000000000000e+00,1.000000000000000000e+00,4.761877746428166969e-01,7.240031288138191190e-01,5.480930565254850118e-01,4.058254888945522776e-02,1.442719221441494115e-01,4.748796269950719129e-01,8.032983782882104906e-01,8.363940503623047418e-01,1.495372236728955695e-01
0.000000000000000000e+00,7.000000000000000000e+00,1.000000000000000000e+00,3.164605389865275953e-01,1.484460097291555591e-01,1.994332098367973538e-01,2.582178335273496161e-01,4.023175262529169460e-01,7.503388904188745823e-02,5.590560526417257536e-01,2.173801049498711446e-01,1.474401041896087339e-01
0.000000000000000000e+00,8.000000000000000000e+00,1.000000000000000000e+00,6.998980918654619243e-01,5.309602109685198634e-01,2.220713776510258031e-01,5.794726940043004593e-02,1.744740546574516937e-01,2.768416638114690187e-01,5.582658986549604574e-01,6.813864318635194373e-01,4.396173085825664240e-01
0.000000000000000000e+00,9.000000000000000000e+00,1.000000000000000000e+00,5.326854002005924071e-01,1.113836140822069831e-01,5.684101557561178630e-01,7.625266037407509856e-01,9.607397311215862823e-01,3.991530973614088040e-02,7.751779521856649868e-02,8.088840391284838338e-01,6.067124417035234529e-01
0.000000000000000000e+00,1.000000000000000000e+01,1.000000000000000000e+00,3.828227009544279413e-01,7.410937960883557940e-01,6.972934669641905892e-01,9.210244777922819148e-01,5.443220460011896078e-01,5.057473010339533781e-01,8.445123695577995138e-01,5.849420925611166222e-01,9.982249660380101419e-01
0.000000000000000000e+00,1.100000000000000000e+01,1.000000000000000000e+00,1.277987391826629349e-02,5.418325126595013863e-01,7.720017595112077524e-01,4.064811338645705208e-01,1.182353174170408527e-01,8.648559376777309460e-02,5.485686682691592875e-01,7.521036277557311411e-01,2.929679234884319250e-02
0.000000000000000000e+00,1.200000000000000000e+01,1.000000000000000000e+00,9.739339993162372533e-01,6.462848157658895865e-02,4.336866385695470338e-01,5.612939558843197396e-01,7.046865422562801351e-01,6.826753251167104741e-01,2.039141703674610673e-01,2.322469707731585897e-01,6.278059478471686994e-02
0.000000000000000000e+00,1.300000000000000000e+01,1.000000000000000000e+00,3.071864436994580227e-01,3.132100726375656174e-01,6.093791510241686193e-02,6.799521887162148781e-01,6.323283504325633020e-01,3.057351630067204340e-01,9.590645727513252838e-01,6.707379736988942076e-01,6.696698033410480866e-01
0.000000000000000000e+00,1.400000000000000000e+01,1.000000000000000000e+00,1.426928092903134715e-02,8.625311439071148278e-01,6.734606577893631485e-02,9.426307755599270255e-01,7.383535998643357967e-01,5.546015979225848991e-02,8.518473631045883065e-01,9.576969236051373624e-01,1.507388385041474876e-02
0.000000000000000000e+00,1.500000000000000000e+01,1.000000000000000000e+00,9.998588492700821728e-01,6.528980522950420529e-01,3.096905267201979228e-01,9.737090818640535828e-01,6.693213444531630474e-01,2.742912856154607892e-01,4.979622387001285677e-01,8.981213820210696142e-01,9.580489077176551627e-01
0.000000000000000000e+00,1.600000000000000000e+01,1.000000000000000000e+00,3.294602497540800590e-01,7.356968450053276154e-01,6.299137526379463559e-01,5.175504288419671139e-01,2.651290336609314346e-01,4.238115298195959113e-01,2.557335612693566462e-01,4.383308522855836609e-01,8.258632554763688516e-01
0.000000000000000000e+00,1.700000000000000000e+01,1.000000000000000000e+00,4.073635144575136202e-01,6.584613025404462139e-02,5.206989075440342507e-01,2.884744718349335768e-01,8.934300895655827857e-01,8.190476615419104434e-01,4.820864188938149830e-01,3.360586898919022403e-01,5.022752438364253003e-03
0.000000000000000000e+00,1.800000000000000000e+01,1.000000000000000000e+00,2.971076932736625986e-01,3.826001381397962087e-01,4.441566729606867270e-01,8.335088286065849283e-01,5.937701515561171206e-01,5.527224464345854571e-01,7.696957543442656258e-01,7.223695472941976670e-01,7.441791406880780002e-01
0.000000000000000000e+00,1.900000000000000000e+01,1.000000000000000000e+00,5.497654085290769599e-01,5.286975199379426726e-01,2.956617636366948298e-01,5.529788856126713892e-01,5.460315433711202537e-01,8.640309078582373292e-01,9.741945936700724396e-01,6.516275489632092910e-01,1.391624214758979683e-01
0.000000000000000000e+00,2.000000000000000000e+01,1.000000000000000000e+00,4.214206808991680653e-01,5.238353202038026346e-01,1.969023019973823452e-01,8.609312149523864477e-01,7.587896885320815077e-01,3.606295207302574468e-01,3.940399705238873951e-01,9.374167549042894398e-01,9.903099547960865223e-01
0.000000000000000000e+00,2.100000000000000000e+01,1.000000000000000000e+00,7.606391458816561535e-01,7.241260876765337473e-01,3.381697475896362493e-01,7.000004362034315530e-01,7.885900903105819149e-01,4.522612527912173164e-01,9.007765468062336467e-01,6.842350157795150656e-01,5.705248292264684107e-01
0.000000000000000000e+00,2.200000000000000000e+01,1.000000000000000000e+00,1.036193238486298185e-01,2.120978727436401146e-01,8.098884705660351901e-01,2.466268142156594623e-01,1.724475621755544585e-01,4.101939889473020795e-01,1.066549500920784821e-01,4.578004600207720154e-01,7.947044747241596152e-01
0.000000000000000000e+00,2.300000000000000000e+01,1.000000000000000000e+00,8.194757874915723495e-01,3.925536427301377085e-01,7.988580064726769070e-01,2.811359856768002041e-01,9.563428284878483510e-01,1.174986681903749108e-01,3.963143557902449876e-01,5.107622494494745702e-02,1.680948014245897681e-01
0.000000000000000000e+00,2.400000000000000000e+01,1.000000000000000000e+00,3.272301355832362146e-01,2.998147451124574259e-01,3.866299344893687762e-01,8.044693703174702337e-01,2.019123057966719648e-01,4.967418981172802006e-01,5.534286587412429181e-01,4.842124775261018588e-01,7.756442903201015149e-01
0.000000000000000000e+00,2.500000000000000000e+01,1.000000000000000000e+00,5.132470205826784593e-01,1.267867494790069216e-01,5.544372631399319129e-01,7.119211770074989065e-01,6.344190915194535263e-01,5.618103351479859509e-01,2.766667885542712924e-01,7.852063114576034453e-01,6.046424767629012820e-01
0.000000000000000000e+00,2.600000000000000000e+01,1.000000000000000000e+00,4.391507093728489464e-01,7.366264523421974797e-01,8.807057447000379291e-01,6.821203284205095141e-01,3.732492257069328634e-01,6.094225504095311940e-01,1.367915145575935298e-01,9.560845519533922587e-01,9.228457527122382320e-01
0.000000000000000000e+00,2.700000000000000000e+01,1.000000000000000000e+00,3.210153435214424533e-01,8.175286286864531515e-01,6.687724662630957218e-01,8.087449764449636813e-01,5.325548547895324614e-01,6.888356197934109026e-02,7.321737570533529693e-01,8.362562713701917616e-01,4.778826094354553522e-01
0.000000000000000000e+00,2.800000000000000000e+01,1.000000000000000000e+00,3.111195871371463806e-02,9.441778276459362740e-01,6.451246402780075329e-01,3.975358044852972395e-01,2.913892126562661611e-01,1.342180932295325979e-01,5.802629384249538003e-01,1.478685958404980516e-01,1.823173265536145449e-01
0.000000000000000000e+00,2.900000000000000000e+01,1.000000000000000000e+00,4.057567823658978501e-01,6.558628714813272698e-01,4.023723682293200987e-03,2.691558342822509831e-01,6.069814273319114051e-01,3.926890383789980454e-01,6.595469218425702440e-01,4.054241814275633127e-01,4.346886479227063393e-02
0.000000000000000000e+00,3.000000000000000000e+01,1.000000000000000000e+00,1.912417989627360759e-01,1.578664477529146959e-01,3.845714894533197592e-01,3.826371071064735840e-01,2.035641494354611947e-02,3.726252304861472631e-01,3.727146706256757591e-01,6.708894271421241839e-01,8.069698584936668695e-03
0.000000000000000000e+00,3.100000000000000000e+01,1.000000000000000000e+00,5.681877825329832987e-01,4.900045964226077411e-01,3.587656412188188204e-01,9.326613938122707559e-02,7.114007289747531493e-01,7.751310862318150363e-02,4.596834131887211905e-01,4.266800580918648222e-01,9.485986306462369511e-01
0.000000000000000000e+00,3.200000000000000000e+01,1.000000000000000000e+00,7.610179190316459508e-01,4.850319974520345134e-01,2.666246964649054974e-02,5.953826802748246605e-01,6.353605553822860852e-02,2.784830357413424773e-01,2.108062887145963904e-01,4.199889605593122299e-01,6.156118659504219437e-01
0.000000000000000000e+00,3.300000000000000000e+01,1.000000000000000000e+00,8.982249746354820097e-02,7.999791723384755970e-01,5.444537561711999540e-01,3.406018087048078291e-01,3.940955380258962526e-01,7.838850074112927446e-01,2.508452491089936398e-01,4.202775979902493297e-01,2.570776348303305259e-01
0.000000000000000000e+00,3.400000000000000000e+01,1.000000000000000000e+00,8.564515606351932320e-01,6.759522695467694575e-01,2.628486276074487593e-01,2.068868990228284188e-01,5.971513105454572257e-01,1.839674160699938943e-01,7.928582534575708829e-01,2.073272663333826094e-01,2.780487484129778863e-02
0.000000000000000000e+00,3.500000000000000000e+01,1.000000000000000000e+00,1.381474442200507635e-01,5.314900674851090745e-01,6.029934647719963348e-01,1.118700776391623464e-01,7.136733841616991203e-01,5.838928160633438669e-01,6.187248212791573998e-02,9.575736852326315329e-01,4.579180413485673951e-01
0.000000000000000000e+00,3.600000000000000000e+01,1.000000000000000000e+00,3.391703230134210933e-01,7.825803610384597375e-01,8.455404833907199658e-01,7.972629000739874794e-01,4.878940240859710453e-01,5.684345825058275681e-01,7.083447203669699377e-01,1.147765482519469415e-02,5.124479334598672775e-01
0.000000000000000000e+00,3.700000000000000000e+01,1.000000000000000000e+00,6.553520898712275056e-01,9.076364903542974982e-01,4.143118425417188222e-01,2.282642451542149509e-02,8.875800392024385532e-01,9.886938079507645583e-02,9.750742425417379122e-01,2.508343726495417814e-01,2.218463798296739231e-01
0.000000000000000000e+00,3.800000000000000000e+01,1.000000000000000000e+00,4.622393855120301431e-01,8.769906028214813354e-01,7.548790564784650936e-01,4.847578354018073910e-01,2.142760504782401654e-01,8.607255221955067981e-01,7.592494498629416277e-01,3.564689364742156252e-01,6.172020396640224282e-01
0.000000000000000000e+00,3.900000000000000000e+01,1.000000000000000000e+00,1.193557798508801948e-01,7.217255653119558634e-02,3.173117274240292440e-01,5.702318988053494131e-01,4.233644951666692968e-01,6.263848724575744598e-01,7.148256374284668313e-01,5.413301379029278326e-01,1.431248719270439285e-02
0.000000000000000000e+00,4.000000000000000000e+01,1.000000000000000000e+00,1.799506210952749319e-01,8.728834102396539896e-01,6.495089915755593024e-01,5.772271385166971580e-02,4.961710607051603716e-01,8.689343965973805872e-01,8.791800019301782010e-01,1.278583561968807958e-01,6.109269069037903677e-01
0.000000000000000000e+00,4.100000000000000000e+01,1.000000000000000000e+00,8.577502187263996714e-01,2.438771762469509330e-01,8.491827613799098895e-01,1.446071910287989315e-01,4.942816861095378211e-01,6.069300427854047442e-01,4.419661902182039359e-01,4.612535549808323143e-01,8.792200211085807737e-01
0.000000000000000000e+00,4.200000000000000000e+01,1.000000000000000000e+00,2.895212210064538327e-01,5.743166816859873736e-01,2.844997998710752096e-02,3.162127408437234166e-01,6.467897731291190055e-01,3.462452186736497683e-02,4.731590318135072692e-01,5.511920497597089241e-01,6.634995921847255396e-01
0.000000000000000000e+00,4.300000000000000000e+01,1.000000000000000000e+00,3.874264747766226202e-01,9.461812070348338821e-01,9.684838270398623550e-01,2.418415059469680717e-01,3.920573973120482503e-01,8.443860230482352902e-01,6.288006468542102212e-01,3.995085337722843466e-01,2.702056170262567836e-01
0.000000000000000000e+00,4.400000000000000000e+01,1.000000000000000000e+00,9.345105544314246115e-01,8.445947246117821994e-01,4.417825531853015741e-01,1.582038193525200365e-01,6.759869708298699154e-01,8.420573087699435577e-01,2.972861226204863705e-01,9.158094713353267524e-01,5.483690681837014580e-01
0.000000000000000000e+00,4.500000000000000000e+01,1.000000000000000000e+00,4.858353315348586943e-01,3.216123914618403967e-01,7.995519627440890176e-01,3.598959701361665875e-01,7.852883728592603418e-01,3.731254537507000535e-03,8.511511079239900690e-01,5.809341524144395752e-02,7.211574518471119966e-01
0.000000000000000000e+00,4.600000000000000000e+01,1.000000000000000000e+00,7.358186271519775445e-01,8.379867406567669263e-01,6.401935127505916645e-01,3.450510517287687096e-01,6.232554122839067956e-01,5.332067085745744173e-01,4.839732782308620029e-01,7.958968751755944870e-01,5.701459963301686029e-01
0.000000000000000000e+00,4.700000000000000000e+01,1.000000000000000000e+00,4.664310154639605965e-01,2.344746969957505200e-01,6.009619989379944016e-01,3.564953523297994531e-01,3.000501718580350641e-01,2.987015787927403965e-01,5.053058028543233604e-02,9.841722632720922848e-01,9.398768544654605428e-01
0.000000000000000000e+00,4.800000000000000000e+01,1.000000000000000000e+00,1.971722183036134224e-01,7.866044610195711551e-01,9.627718117279500110e-01,4.082364907389903763e-01,2.302707493382316617e-02,6.153199539453590994e-02,4.819532563966822947e-01,5.046011207134329934e-01,5.326547475110141594e-01
0.000000000000000000e+00,4.900000000000000000e+01,1.000000000000000000e+00,2.764819107606935056e-01,6.177592296531141391e-01,9.266136775565437800e-01,9.921595981201012382e-01,9.196064510426419369e-01,7.528980611582340998e-01,3.634686824390609416e-01,3.510355303642027636e-01,6.475848490908620025e-01
0.000000000000000000e+00,5.000000000000000000e+01,1.000000000000000000e+00,8.618680874679126580e-01,6.408569219234901970e-01,7.881597815603011981e-01,5.229118065742536237e-01,1.893897366761670975e-01,1.066324153187380164e-01,2.479139053180230423e-01,9.273739340360044325e-01,8.995803534528110657e-01
0.000000000000000000e+00,5.100000000000000000e+01,1.000000000000000000e+00,6.943655324939049800e-01,4.852425119538439358e-01,7.704178937041852304e-01,9.851309765836663290e-01,6.162462665846892840e-01,5.839558622048330871e-01,4.721940023279321830e-01,3.356116743395747282e-01,1.036952707360123682e-01
0.000000000000000000e+00,5.200000000000000000e+01,1.000000000000000000e+00,8.277355355986646401e-01,8.939321868900123036e-01,2.727965249717134721e-01,6.582755778498627919e-01,1.649511939848495867e-01,4.635144495802662190e-01,4.040853525832002191e-01,3.946332102078187187e-01,4.053676127794642037e-01
0.000000000000000000e+00,5.300000000000000000e+01,1.000000000000000000e+00,9.878518476212887478e-01,3.904074604894447464e-01,3.496077292046260165e-01,6.690586766830712850e-01,8.363385827215809032e-01,8.301865534504422328e-01,3.754254765047152498e-01,7.355161879740109709e-01,7.628135381701151019e-03
0.000000000000000000e+00,5.400000000000000000e+01,1.000000000000000000e+00,2.085939627365954729e-01,2.444093744454329808e-01,6.904903682985611413e-01,5.992937361743426727e-01,7.493758697635800603e-01,4.871246140370834032e-01,2.446946574357983240e-01,7.356028828268719177e-01,9.315989573325552664e-01
0.000000000000000000e+00,5.500000000000000000e+01,1.000000000000000000e+00,5.765861798202935873e-01,1.610127090583948206e-01,2.630754154264652867e-01,5.392951080012984288e-01,8.439669031773702201e-01,9.797580120586643071e-01,7.970603392897637196e-01,5.939235761413638182e-01,2.541438462505841711e-01
0.000000000000000000e+00,5.600000000000000000e+01,1.000000000000000000e+00,8.923925509911267984e-02,1.187091188696824950e-01,7.258899403326442012e-01,4.922397550215952267e-01,3.392988111198251833e-01,9.763424795799039435e-01,3.403120026484204308e-01,1.642056697119755881e-01,5.696509432186902533e-02
0.000000000000000000e+00,5.700000000000000000e+01,1.000000000000000000e+00,2.439014071696796737e-01,7.385012892306300758e-01,9.621578610028672651e-01,7.196072081836399903e-01,6.087018541847910580e-02,3.040955670362361918e-01,5.164761004911130327e-01,5.491379443985281439e-01,3.117226724622832457e-01
0.000000000000000000e+00,5.800000000000000000e+01,1.000000000000000000e+00,1.422276872764860478e-02,4.135987659023021568e-02,9.092190314669473805e-01,5.581383634683271255e-01,2.192917654645930581e-01,1.018488367626030344e-01,7.879667770112498415e-01,9.226024761352006331e-01,8.602794568947534914e-01
0.000000000000000000e+00,5.900000000000000000e+01,1.000000000000000000e+00,4.101968250613065026e-01,2.685160581265456647e-01,6.696376426732550957e-01,9.047603273082976960e-01,8.849421692419483509e-01,3.701520227304557764e-01,9.562468051852563988e-01,5.839674434372400524e-01,2.579259938892742854e-01
0.000000000000000000e+00,6.000000000000000000e+01,1.000000000000000000e+00,1.933317577955265820e-01,3.216141504815428487e-01,9.534614985569078716e-02,3.613457317535360147e-01,1.675893710520459656e-02,2.309469654823915752e-01,5.451668983124166035e-01,8.317730765268034343e-01,9.740388780344895192e-01
0.000000000000000000e+00,6.100000000000000000e+01,1.000000000000000000e+00,5.945446991151037697e-02,7.178720073556004166e-01,1.874047419768682943e-01,7.757067933235899382e-01,9.451763713067233841e-01,2.640202797590130990e-01,7.555063050307773143e-01,1.985328337603013971e-01,5.550166660918161021e-01
0.000000000000000000e+00,6.200000000000000000e+01,1.000000000000000000e+00,5.136554622497110367e-01,4.337146855479190322e-02,7.326356920918749571e-01,9.895062292798022519e-01,6.450323692371566775e-01,6.997673840828546599e-01,6.185407907028306340e-02,7.223192823126595163e-01,9.926158318094923105e-01
0.000000000000000000e+00,6.300000000000000000e+01,1.000000000000000000e+00,1.360215538454039308e-01,3.368939749641500780e-01,6.559971192292026743e-01,1.826235149141930414e-01,5.613095976300487289e-01,2.190053559690734453e-01,2.282719843126213011e-01,3.406551072866538243e-01,7.468573039025883098e-02
0.000000000000000000e+00,6.400000000000000000e+01,1.000000000000000000e+00,3.613860589237662957e-01,3.972561914677992245e-01,2.762051854889914226e-01,4.827914416838317013e-01,3.838665699789353125e-01,3.866815466893364084e-01,1.928017408187900905e-01,8.370993223458662591e-01,6.353895263808403415e-01
0.000000000000000000e+00,6.500000000000000000e+01,1.000000000000000000e+00,5.516746592057550913e-01,3.066815613002367158e-01,6.771311940633002457e-01,7.567106382099073603e-01,4.979460648586778726e-01,8.333830098224304095e-02,9.359635094711481473e-01,1.821765357241927896e-01,1.492154691543385869e-01
0.000000000000000000e+00,6.600000000000000000e+01,1.000000000000000000e+00,5.051669520056881746e-01,3.555497250556511890e-01,8.903367490399090034e-01,6.263122948046974114e-01,1.605791265439270310e-01,5.119436894617950262e-01,7.532221681220903076e-01,5.418725751977387928e-01,3.719228504077849440e-01
0.000000000000000000e+00,6.700000000000000000e+01,1.000000000000000000e+00,1.280012410641527820e-01,4.170266974070802046e-01,3.894034654469774592e-01,9.146610821707334971e-01,5.571895643244951790e-01,4.395042340325517882e-01,1.071722769227508865e-01,3.820551827668280387e-01,7.768952028492053241e-01
0.000000000000000000e+00,6.800000000000000000e+01,1.000000000000000000e+00,7.175818542522065524e-01,5.447039450068518196e-01,9.613374250387107800e-02,8.728164209677493623e-01,1.565083978715174906e-01,2.494991626389275741e-02,4.979539098926858420e-01,8.386388834643476731e-02,2.899488100732213747e-01
0.000000000000000000e+00,6.900000000000000000e+01,1.000000000000000000e+00,2.752847416885323417e-01,3.372362456542712383e-01,9.607093466171987561e-01,1.549238789938995886e-01,1.760985934730960878e-01,2.905611699282119043e-01,8.603661549007944886e-01,1.119356697575679682e-02,5.702536558084746465e-01
0.000000000000000000e+00,7.000000000000000000e+01,1.000000000000000000e+00,4.289174307676923981e-01,2.223765616796054001e-01,2.755307437250323899e-01,9.068802732515152121e-01,6.314775959885646772e-01,3.523818950486541368e-01,1.451874697833641648e-01,5.510331906605436814e-03,7.849645058276056853e-01
0.000000000000000000e+00,7.100000000000000000e+01,1.000000000000000000e+00,1.227956885506967799e-01,3.256633916265586626e-01,9.920613356798916316e-01,4.051317211363628656e-01,5.911797396166000862e-01,7.609658054903005731e-01,8.082154914488598463e-01,4.506331291084982871e-01,2.936362598681542257e-01
0.000000000000000000e+00,7.200000000000000000e+01,1.000000000000000000e+00,6.914912482944263195e-01,8.268018932254185271e-01,8.052818840551172475e-01,4.823898775820676388e-01,2.426254747575484760e-02,9.214568552882682617e-01,9.441711168525078746e-01,5.733430471665253991e-01,5.261529811832211800e-01
0.000000000000000000e+00,7.300000000000000000e+01,1.000000000000000000e+00,6.937477973306593881e-02,2.576863720975554051e-01,8.190831063269310430e-01,4.851421477718251829e-01,4.483941970714631076e-01,6.653522275668027897e-01,9.733091267442367522e-01,5.267515466650495304e-01,1.456459508658185520e-01
0.000000000000000000e+00,7.400000000000000000e+01,1.000000000000000000e+00,7.402023473394361286e-01,6.140639163461948380e-01,9.598253981857851613e-01,7.401619922037463439e-01,1.372378480184391902e-01,4.691122580718498636e-02,2.157163633916814316e-01,7.096816492627728845e-01,2.298328816722741141e-01
0.000000000000000000e+00,7.500000000000000000e+01,1.000000000000000000e+00,7.196243027740372167e-01,5.839899128574049803e-01,7.223525988242807117e-02,4.347383403677045344e-01,3.056697264734231645e-03,6.109234734948592038e-01,3.097946973383792768e-01,9.337695645827854829e-01,8.535950217179009147e-01
0.000000000000000000e+00,7.600000000000000000e+01,1.000000000000000000e+00,2.402828194456168021e-01,1.929696793191212345e-01,5.903671395061945715e-01,4.571763213316539787e-01,5.493324987792641556e-01,3.517470232425680132e-01,7.001689586286065081e-01,7.130190318437924502e-01,4.947774702823788395e-01
0.000000000000000000e+00,7.700000000000000000e+01,1.000000000000000000e+00,2.257656821842027872e-01,3.101875524588909583e-01,1.960733689612161879e-01,9.520721391114715937e-01,2.422468741732984876e-01,4.097197880815480753e-01,3.053547730489282186e-01,2.439406113563273859e-01,3.392431015851736786e-01
0.000000000000000000e+00,7.800000000000000000e+01,1.000000000000000000e+00,5.644830473019541994e-01,2.348714957172971518e-01,7.702303443901727942e-01,8.789861842883454068e-01,9.366110526717235096e-01,6.154531357114495504e-01,6.453193590086619968e-01,5.804150278217549142e-01,1.592151538909329922e-01
0.000000000000000000e+00,7.900000000000000000e+01,1.000000000000000000e+00,6.991493934160712964e-01,7.546769934457944196e-01,3.934966469677666501e-01,6.327555935401395493e-01,1.838897260952583324e-01,2.684735671086361242e-01,5.734386345531632401e-01,5.420489938469581492e-01,5.273849114003229532e-01
0.000000000000000000e+00,8.000000000000000000e+01,1.000000000000000000e+00,4.519821695603565281e-02,9.300335163214430434e-01,1.494669349423375371e-01,5.715527013195890182e-01,8.682363493905354002e-02,3.020268819623380674e-01,3.033546701841818294e-01,9.065776305322564843e-01,3.564385598170036751e-01
0.000000000000000000e+00,8.100000000000000000e+01,1.000000000000000000e+00,8.148737274037977096e-01,8.398143511825717500e-01,8.726878598002135723e-01,9.896864705849435229e-01,2.491059167129132668e-01,4.084107536174299558e-01,1.321782127574071541e-01,2.944983443085303909e-01,2.062873605168591418e-02
0.000000000000000000e+00,8.200000000000000000e+01,1.000000000000000000e+00,5.270976811510081905e-01,9.295086199857360842e-01,1.529409883055830033e-01,9.136873378846349647e-01,2.281345158353895730e-01,8.786790136910822557e-01,4.220229232812156006e-02,3.503153550173400133e-01,9.199871770361744971e-03
0.000000000000000000e+00,8.300000000000000000e+01,1.000000000000000000e+00,1.335533452918695740e-01,5.439442452010888607e-01,5.646366375351352662e-02,9.189865063254913924e-01,4.526068111515325620e-01,3.488706255130543665e-01,3.588775566770076031e-01,7.958984703793084980e-01,3.243890688142238021e-01
0.000000000000000000e+00,8.400000000000000000e+01,1.000000000000000000e+00,1.888355631248828104e-02,3.604640348016839857e-01,9.163028084671412943e-01,1.195976995951590904e-01,2.355896720644659048e-01,1.068552521040282421e-01,6.984681603759477220e-01,9.988037714640185527e-03,3.428856193109315331e-01
0.000000000000000000e+00,8.500000000000000000e+01,1.000000000000000000e+00,9.064289295075432795e-01,3.878830012870250199e-01,5.849612954077550997e-01,6.148101699942097875e-01,7.307083322692878857e-01,6.601932423583645182e-03,5.995138050056680878e-02,7.354888437680211499e-01,1.353479044686990429e-01
0.000000000000000000e+00,8.600000000000000000e+01,1.000000000000000000e+00,7.605637127143499709e-01,8.301678728503525395e-01,3.355380598171672224e-01,7.610757038393468621e-01,3.393059639065629796e-01,8.903407859372586275e-01,5.246466667067647416e-01,4.907949337669044176e-01,2.007564177660435822e-01
0.000000000000000000e+00,8.700000000000000000e+01,1.000000000000000000e+00,1.506358431772004680e-01,2.338484122110214836e-01,5.070604587129647900e-01,2.845839869244977116e-01,4.770709768608766277e-01,3.696346244027537420e-01,8.078910143675859246e-01,7.391868189947141676e-01,4.263793961842875513e-01
0.000000000000000000e+00,8.800000000000000000e+01,1.000000000000000000e+00,4.637257010363088350e-01,5.624555710966714361e-01,4.003928210600533610e-01,6.828151037162722981e-01,4.996693032010439683e-01,8.226826634987752795e-01,7.220101327648609235e-03,1.121099719847753473e-01,5.579789063054229059e-01
0.000000000000000000e+00,8.900000000000000000e+01,1.000000000000000000e+00,1.407309994952695709e-01,5.565755889452360661e-01,6.468234746188968876e-01,3.430485916808999614e-01,7.181833224900239232e-01,7.976760878757156448e-01,9.300984637259106513e-01,8.797818114740733053e-01,4.265359606520499058e-01
0.000000000000000000e+00,9.000000000000000000e+01,1.000000000000000000e+00,2.922362249719062666e-01,3.081984014350748202e-01,6.848108649845201512e-01,7.552692946461445622e-01,3.110984107513953267e-01,5.947689447707249499e-01,2.165733401760915333e-01,7.899413756515354379e-01,8.836553426777553621e-01
0.000000000000000000e+00,9.100000000000000000e+01,1.000000000000000000e+00,7.011985086881600271e-01,5.943307638028892947e-01,3.482177931792640457e-01,3.635082333590423653e-01,8.581145541352530604e-02,8.949274023820696922e-01,8.452104452765821785e-01,6.830050279215866826e-01,3.507715768591139760e-01
0.000000000000000000e+00,9.200000000000000000e+01,1.000000000000000000e+00,5.988737428996593337e-01,9.715110451326298691e-01,5.767690257322242164e-01,2.970838456596883725e-01,5.703555798214380301e-01,2.363658814408382547e-01,4.131953604658477053e-01,5.968394716229533659e-01,6.795553918787569092e-01
0.000000000000000000e+00,9.300000000000000000e+01,1.000000000000000000e+00,1.585604240895762684e-01,3.749293800953633626e-01,9.706455093048765859e-01,4.727613284439968755e-02,3.891513578454841582e-02,8.455943617436354476e-01,5.136649340060241986e-01,5.340896562474199971e-01,2.981861547445083804e-01
0.000000000000000000e+00,9.400000000000000000e+01,1.000000000000000000e+00,8.694432249754977526e-01,5.057942669903147115e-01,4.903686484939215884e-01,3.328048435309119979e-01,3.850238868896460609e-02,7.655885080699595946e-01,2.537305886928147292e-01,6.032522911942146404e-01,2.247854056646581000e-02
0.000000000000000000e+00,9.500000000000000000e+01,1.000000000000000000e+00,6.133204432372463266e-01,1.904244049424151930e-01,1.321882989632662264e-01,2.678266110653226839e-01,5.151193879322569780e-01,4.396889693803149868e-01,9.149494104719604337e-01,3.461768108080167661e-01,6.383750643551320270e-01
0.000000000000000000e+00,9.600000000000000000e+01,1.000000000000000000e+00,4.070039862375542938e-01,5.073784751208866295e-01,8.303344188131996928e-01,8.305353504906600737e-01,2.138706230121403262e-01,2.144545715276696685e-01,7.597778025623139753e-01,7.449707507310544541e-01,8.219553516147826144e-02
0.000000000000000000e+00,9.700000000000000000e+01,1.000000000000000000e+00,5.649130007871239201e-02,1.035664224489266649e-01,6.531932072759729646e-01,4.167249866958221416e-01,2.453469159994413618e-01,2.130596264022779351e-01,6.011578191939517257e-01,8.226309378751097690e-01,2.861416140667866204e-01
0.000000000000000000e+00,9.800000000000000000e+01,1.000000000000000000e+00,5.213048266968253186e-01,6.082148381517735736e-01,1.521390521566070575e-01,9.339337975307963058e-01,9.938790152670554656e-01,2.527635835321055957e-01,9.505125639550091599e-01,5.939168565101685671e-01,4.478786397022945787e-01
0.000000000000000000e+00,9.900000000000000000e+01,1.000000000000000000e+00,5.674854819466638167e-01,9.903826031022388010e-01,6.355281740712270810e-01,4.840459652065600693e-01,1.762143876060451309e-01,5.205717577758001147e-01,5.477281025139014714e-01,5.120594329488403762e-01,6.773414353818045797e-01
0.000000000000000000e+00,1.000000000000000000e+02,1.000000000000000000e+00,5.001177930825561058e-01,3.376128287149854357e-01,2.606637531765931826e-01,4.974192416550800022e-01,9.830161642643623354e-01,8.257831952243743778e-02,8.116650209519827852e-01,3.275294363524224872e-01,1.295765109192930087e-01
